File: data_sets/PET_C1s.csv
x,y,xlabel,ylabel,title
299.301,324.2826,Binding Energy(eV),Intensity (arb. unit),XPS C1s spectrum
299.251,352.4358
299.201,342.0087
299.151,342.0087
299.101,326.368
299.051,356.6066
299.001,344.0941
298.951,332.6243
298.901,332.6243
298.851,329.4962
298.801,339.9232
298.751,328.4535
298.701,304.4711
298.651,326.368
298.601,338.8806
298.551,328.4535
298.501,312.8128
298.451,322.1972
298.401,321.1545
298.351,335.7524
298.301,293.0013
298.251,306.5565
298.201,305.5139
298.151,315.9409
298.101,311.7701
298.051,276.318
298.001,297.1722
297.951,296.1295
297.901,250.2503
297.851,286.7451
297.801,309.6847
297.751,303.4284
297.701,301.343
297.651,294.044
297.601,282.5742
297.551,293.0013
297.501,269.019
297.451,297.1722
297.401,279.4461
297.351,295.0868
297.301,302.3857
297.251,284.6597
297.201,262.7628
297.151,265.8909
297.101,277.3607
297.051,287.7878
297.001,303.4284
296.951,270.0617
296.901,262.7628
296.851,273.1898
296.801,280.4888
296.751,254.4211
296.701,282.5742
296.651,274.2326
296.601,272.1472
296.551,275.2753
296.501,249.2076
296.451,274.2326
296.401,322.1972
296.351,284.6597
296.301,325.3253
296.251,252.3357
296.201,293.0013
296.151,272.1472
296.101,278.4034
296.051,275.2753
296.001,276.318
295.951,296.1295
295.901,259.6346
295.851,303.4284
295.801,293.0013
295.751,293.0013
295.701,298.2149
295.651,298.2149
295.601,303.4284
295.551,299.2576
295.501,308.642
295.451,310.7274
295.401,310.7274
295.351,308.642
295.301,305.5139
295.251,298.2149
295.201,285.7024
295.151,291.9586
295.101,263.8055
295.051,318.0264
295.001,297.1722
294.951,283.6169
294.901,304.4711
294.851,315.9409
294.801,272.1472
294.751,300.3003
294.701,284.6597
294.651,263.8055
294.601,281.5315
294.551,271.1044
294.501,283.6169
294.451,282.5742
294.401,261.7201
294.351,299.2576
294.301,287.7878
294.251,258.5919
294.201,280.4888
294.151,276.318
294.101,275.2753
294.051,279.4461
294.001,263.8055
293.951,270.0617
293.901,274.2326
293.851,265.8909
293.801,278.4034
293.751,306.5565
293.701,259.6346
293.651,281.5315
293.601,265.8909
293.551,255.4638
293.501,255.4638
293.451,289.8732
293.401,264.8482
293.351,282.5742
293.301,288.8305
293.251,278.4034
293.201,284.6597
293.151,280.4888
293.101,246.0794
293.051,283.6169
293.001,301.343
292.951,271.1044
292.901,252.3357
292.851,273.1898
292.801,279.4461
292.751,258.5919
292.701,258.5919
292.651,293.0013
292.601,315.9409
292.551,286.7451
292.501,314.8982
292.451,294.044
292.401,308.642
292.351,306.5565
292.301,280.4888
292.251,325.3253
292.201,329.4962
292.151,318.0264
292.101,333.667
292.051,308.642
292.001,325.3253
291.951,349.3076
291.901,303.4284
291.851,356.6066
291.801,311.7701
291.751,319.0691
291.701,342.0087
291.651,349.3076
291.601,364.9483
291.551,398.315
291.501,303.4284
291.451,342.0087
291.401,350.3503
291.351,352.4358
291.301,357.6493
291.251,339.9232
291.201,367.0337
291.151,357.6493
291.101,364.9483
291.051,325.3253
291.001,340.966
290.951,367.0337
290.901,362.8629
290.851,381.6316
290.801,367.0337
290.751,353.4785
290.701,342.0087
290.651,352.4358
290.601,353.4785
290.551,297.1722
290.501,345.1368
290.451,291.9586
290.401,325.3253
290.351,326.368
290.301,305.5139
290.251,308.642
290.201,299.2576
290.151,294.044
290.101,316.9836
290.051,278.4034
290.001,323.2399
289.951,296.1295
289.901,318.0264
289.851,296.1295
289.801,288.8305
289.751,281.5315
289.701,280.4888
289.651,351.3931
289.601,323.2399
289.551,314.8982
289.501,364.9483
289.451,339.9232
289.401,389.9733
289.351,380.5889
289.301,470.2619
289.251,506.7568
289.201,572.4474
289.151,680.8892
289.101,761.1779
289.051,817.4842
289.001,877.9613
288.951,1026.026
288.901,1096.93
288.851,1191.82
288.801,1301.3
288.751,1370.12
288.701,1484.82
288.651,1597.43
288.601,1507.76
288.551,1557.81
288.501,1593.26
288.451,1518.18
288.401,1472.31
288.351,1357.61
288.301,1290.87
288.251,1202.24
288.201,1046.88
288.151,985.3604
288.101,820.6123
288.051,668.3767
288.001,560.9777
287.951,506.7568
287.901,459.8348
287.851,392.0587
287.801,327.4107
287.751,358.692
287.701,279.4461
287.651,259.6346
287.601,223.1398
287.551,243.994
287.501,206.4565
287.451,211.67
287.401,218.969
287.351,218.969
287.301,240.8659
287.251,294.044
287.201,333.667
287.151,330.5389
287.101,389.9733
287.051,379.5462
287.001,457.7494
286.951,511.9703
286.901,559.9349
286.851,597.4725
286.801,688.1882
286.751,712.1705
286.701,795.5873
286.651,838.3384
286.601,940.5239
286.551,1053.14
286.501,1161.58
286.451,1190.77
286.401,1264.81
286.351,1303.39
286.301,1378.46
286.251,1431.64
286.201,1416
286.151,1505.67
286.101,1409.743
286.051,1438.939
286.001,1447.28
285.951,1366.99
285.901,1289.83
285.851,1292.96
285.801,1188.69
285.751,1137.6
285.701,1093.8
285.651,1085.46
285.601,1005.17
285.551,1087.55
285.501,1070.86
285.451,1141.77
285.401,1188.69
285.351,1325.28
285.301,1346.14
285.251,1539.04
285.201,1781.99
285.151,1956.12
285.101,2214.71
285.051,2496.25
285.001,2673.51
284.951,2833.04
284.901,3229.271
284.851,3359.61
284.801,3449.28
284.751,3617.16
284.701,3875.75
284.651,3776.69
284.601,3887.22
284.551,3847.6
284.501,3831.957
284.451,3671.38
284.401,3416.96
284.351,3259.51
284.301,2971.72
284.251,2768.39
284.201,2651.61
284.151,2242.87
284.101,1978.02
284.051,1698.57
284.001,1468.13
283.951,1261.68
283.901,1068.78
283.851,883.1749
283.801,753.8789
283.751,629.7964
283.701,521.3547
283.651,461.9203
283.601,403.5285
283.551,356.6066
283.501,275.2753
283.451,269.019
283.401,242.9513
283.351,215.8409
283.301,167.8762
283.251,184.5596
283.201,154.321
283.151,182.4741
283.101,149.1074
283.051,145.9793
283.001,155.3637
282.951,148.0647
282.901,137.6376
282.851,129.296
282.801,125.1251
282.751,143.8939
282.701,131.3814
282.651,118.8689
282.601,131.3814
282.551,148.0647
282.501,111.5699
282.451,120.9543
282.401,120.9543
282.351,130.3387
282.301,104.2709
282.251,132.4241
282.201,98.0147
282.151,115.7407
282.101,123.0397
282.051,119.9116
282.001,138.6803
281.951,115.7407
281.901,126.1678
281.851,123.0397
281.801,115.7407
281.751,101.1428
281.701,117.8262
281.651,106.3564
281.601,106.3564
281.551,105.3137
281.501,95.9293
281.451,117.8262
281.401,125.1251
281.351,100.1001
281.301,106.3564
281.251,130.3387
281.201,105.3137
281.151,110.5272
281.101,123.0397
281.051,141.8085
281.001,102.1855
280.951,112.6126
280.901,91.7584
280.851,109.4845
280.801,81.3313
280.751,104.2709
280.701,112.6126
280.651,102.1855
280.601,114.698
280.551,98.0147
280.501,113.6553
280.451,100.1001
280.401,131.3814
280.351,101.1428
280.301,100.1001
280.251,114.698
280.201,124.0824
280.151,111.5699
280.101,136.5949
280.051,112.6126
280.001,111.5699
279.951,120.9543
279.901,114.698
279.851,109.4845
279.801,111.5699
279.751,114.698
279.701,121.997
279.651,99.0574
279.601,132.4241
279.551,106.3564
279.501,109.4845
279.451,103.2282
279.401,103.2282
279.351,100.1001
279.301,117.8262